.thisTrialN,.stepSize,.intensity,time.onset,cue.color,.response,Target_Resp.rt,Trial.rewardType,Total_Earned,time.global,time.nominal,time.trial,time.plannedfixlength,time.actualfixlength,fMRI? (yes or no),date,expName,participant,frameRate,
0,6,13.0,8.02814912796,Green,1,0.367210865021,1,1,12.4790680408,12.4894271339,4.45019078255,0.477375074711,0.467064142227,yes,2018_Nov_16_1855,MID1.0,002,60.0257316269,
1,6,7.0,12.4814090729,Blue,1,0.283852100372,-1,1,16.9629130363,16.9633408774,4.48095178604,0.467158674122,0.466777801514,yes,2018_Nov_16_1855,MID1.0,002,60.0257316269,
2,3,1.0,16.9635791779,Blue,0,,-1,1,20.980025053,20.9916165613,4.01591205597,0.495038344725,0.483490943909,yes,2018_Nov_16_1855,MID1.0,002,60.0257316269,
3,3,4.0,20.9806611538,Blue,1,0.217262983322,-1,1,25.030411005,25.0340525589,4.0492169857,0.503666349369,0.500066995621,yes,2018_Nov_16_1855,MID1.0,002,60.0257316269,
4,3,4.0,25.0311300755,Blue,1,0.217129945755,-1,1,29.4475111961,29.4518019979,4.41593003273,0.48759792497,0.483354091644,yes,2018_Nov_16_1855,MID1.0,002,60.0257316269,
5,3,1.0,29.4482340813,Green,1,0.167062997818,1,2,33.8146891594,33.8197869925,4.36600399017,0.488595929529,0.483541965485,yes,2018_Nov_16_1855,MID1.0,002,60.0257316269,
6,2,1.0,33.8155059814,Blue,0,,-1,2,38.148416996,38.1546521932,4.3324649334,0.489994123566,0.483803033829,yes,2018_Nov_16_1855,MID1.0,002,60.0257316269,
7,2,3.0,38.1490261555,Green,1,0.200560808182,1,3,42.2989051342,42.308720422,4.14934396744,0.493016314686,0.483253002167,yes,2018_Nov_16_1855,MID1.0,002,60.0257316269,
8,2,3.0,42.2998540401,Green,1,0.200711965561,1,4,46.6155471802,46.6116925048,4.31516194344,0.495618419575,0.499534130096,yes,2018_Nov_16_1855,MID1.0,002,60.0257316269,
9,1,1.0,46.6164550781,Green,0,,-1,4,50.9160220623,50.9150933716,4.2989449501,0.465427348376,0.466406106949,yes,2018_Nov_16_1855,MID1.0,002,60.0257316269,
10,1,2.0,50.9178130627,Green,1,0.187419891357,1,5,55.200248003,55.2056953802,4.28190684319,0.488914240813,0.483511924744,yes,2018_Nov_16_1855,MID1.0,002,60.0257316269,
11,1,2.0,55.2008841038,Blue,0,,-1,5,59.2844631672,59.2848868153,4.08304309845,0.484608628516,0.484230995178,yes,2018_Nov_16_1855,MID1.0,002,60.0257316269,
12,1,3.0,59.2850451469,Green,0,,-1,5,63.5006620884,63.5002216355,4.215102911,0.4824656502,0.48295712471,yes,2018_Nov_16_1855,MID1.0,002,60.0257316269,
13,1,4.0,63.5013301373,Green,1,0.217324018478,1,6,67.7010769844,67.6969875456,4.19931602478,0.495482361389,0.499617815018,yes,2018_Nov_16_1855,MID1.0,002,60.0257316269,
14,1,4.0,67.7018179893,Green,1,0.217168807983,1,7,72.0519990921,72.0584935862,4.34973192215,0.489968510269,0.483515977859,yes,2018_Nov_16_1855,MID1.0,002,60.0257316269,
15,1,3.0,72.0526401997,Green,1,0.204138040543,1,8,76.5524721146,76.5559033677,4.49940109253,0.486823253291,0.483434915543,yes,2018_Nov_16_1855,MID1.0,002,60.0257316269,
16,1,3.0,76.5531961918,Green,1,0.200599908829,1,9,81.0194351673,81.0306011042,4.4657831192,0.494364102783,0.483245134354,yes,2018_Nov_16_1855,MID1.0,002,60.0257316269,
17,1,2.0,81.0200750828,Blue,0,,-1,9,85.302822113,85.3026896279,4.28231596947,0.499389485629,0.499570846558,yes,2018_Nov_16_1855,MID1.0,002,60.0257316269,
18,1,3.0,85.3050642014,Green,1,0.204279899597,1,10,89.5204291344,89.5251167223,4.21488499641,0.488118688757,0.483476161957,yes,2018_Nov_16_1855,MID1.0,002,60.0257316269,
19,1,3.0,89.5210649967,Green,1,0.200460910797,1,11,93.6540191174,93.6592370931,4.13242602348,0.488443082942,0.483271121979,yes,2018_Nov_16_1855,MID1.0,002,60.0257316269,
20,1,2.0,93.6548120975,Green,0,,-1,11,97.671172142,97.6771992578,4.01591205597,0.489318264912,0.483335018158,yes,2018_Nov_16_1855,MID1.0,002,60.0257316269,
21,1,3.0,97.6718840599,Green,1,0.183916091919,1,12,101.688280106,101.690921686,4.01595520973,0.485940597708,0.483341932297,yes,2018_Nov_16_1855,MID1.0,002,60.0257316269,
22,1,3.0,101.689007044,Blue,1,0.204118967056,-1,12,105.922145128,105.923368617,4.23270392418,0.501199408869,0.500020980835,yes,2018_Nov_16_1855,MID1.0,002,60.0257316269,
23,1,2.0,105.922932148,Blue,0,,-1,12,110.072391033,110.082601181,4.14900994301,0.47683416968,0.466669082642,yes,2018_Nov_16_1855,MID1.0,002,60.0257316269,
24,1,3.0,110.073110104,Blue,1,0.187540054321,-1,12,114.272861004,114.272608642,4.19930291176,0.499730472259,0.500025987625,yes,2018_Nov_16_1855,MID1.0,002,60.0257316269,
25,1,3.0,114.273574114,Green,1,0.200548887253,1,13,118.706640005,118.718503371,4.43256115913,0.478527203508,0.466711044312,yes,2018_Nov_16_1855,MID1.0,002,60.0257316269,
26,1,2.0,118.708568096,Green,1,0.187558174133,1,14,122.973807096,122.981379756,4.26478219032,0.490879544044,0.483348846436,yes,2018_Nov_16_1855,MID1.0,002,60.0257316269,
27,1,2.0,122.974419117,Green,0,,-1,14,127.257785082,127.261634936,4.28292393684,0.487295737207,0.483498811722,yes,2018_Nov_16_1855,MID1.0,002,60.0257316269,
28,1,3.0,127.258708,Blue,0,,-1,14,131.374829054,131.37969664,4.11558914185,0.488276513869,0.483464956284,yes,2018_Nov_16_1855,MID1.0,002,60.0257316269,
29,1,4.0,131.375679016,Green,1,0.21723484993,1,15,135.39180398,135.391625679,4.0156018734,0.499679602054,0.499910116196,yes,2018_Nov_16_1855,MID1.0,002,60.0257316269,
30,1,4.0,135.392614126,Green,1,0.21747303009,1,16,139.542276144,139.554197144,4.14902114868,0.478713106382,0.466838121414,yes,2018_Nov_16_1855,MID1.0,002,60.0257316269,
31,1,3.0,139.543016195,Blue,1,0.200712919235,-1,16,143.625558138,143.62254584,4.08210086823,0.496775748264,0.499835014343,yes,2018_Nov_16_1855,MID1.0,002,60.0257316269,
32,1,3.0,143.626300097,Green,1,0.200515031815,1,17,147.876429081,147.877657763,4.24967098236,0.484645716379,0.483459949493,yes,2018_Nov_16_1855,MID1.0,002,60.0257316269,
33,1,2.0,147.877054214,Blue,0,,-1,17,152.3768332,152.376999547,4.49934601784,0.483842541979,0.483721017838,yes,2018_Nov_16_1855,MID1.0,002,60.0257316269,
34,1,3.0,152.377547026,Green,1,0.20042014122,1,18,156.710740089,156.714239396,4.33274698257,0.486968315945,0.483511924744,yes,2018_Nov_16_1855,MID1.0,002,60.0257316269,
35,1,3.0,156.711441994,Green,0,,-1,18,160.794347048,160.805161144,4.08237719536,0.477376129268,0.466611146927,yes,2018_Nov_16_1855,MID1.0,002,60.0257316269,
36,1,4.0,160.795082092,Blue,1,0.217370986938,-1,18,165.244955063,165.251946913,4.44939494133,0.490426765342,0.48348903656,yes,2018_Nov_16_1855,MID1.0,002,60.0257316269,
37,1,4.0,165.245804071,Green,1,0.217151880264,1,19,169.645347118,169.650326873,4.39899301529,0.488423730447,0.483486890793,yes,2018_Nov_16_1855,MID1.0,002,60.0257316269,
38,1,3.0,169.647251129,Green,1,0.200461864471,1,20,174.0125072,174.017527719,4.36480093002,0.488482614343,0.483505964279,yes,2018_Nov_16_1855,MID1.0,002,60.0257316269,
39,1,3.0,174.013262987,Green,1,0.204361200333,1,21,178.46274209,178.470824544,4.44902086258,0.491210524878,0.483175039291,yes,2018_Nov_16_1855,MID1.0,002,60.0257316269,
40,1,2.0,178.463471174,Green,0,,-1,21,182.846579075,182.852267286,4.38265585899,0.489397069819,0.483753919601,yes,2018_Nov_16_1855,MID1.0,002,60.0257316269,
41,1,3.0,182.847189188,Green,1,0.20419883728,1,22,187.247099161,187.247141105,4.3993999958,0.500128966553,0.500128984451,yes,2018_Nov_16_1855,MID1.0,002,60.0257316269,
42,1,3.0,187.247879982,Blue,1,0.203691005707,-1,22,191.414190054,191.424034594,4.16584897041,0.493079422255,0.483280897141,yes,2018_Nov_16_1855,MID1.0,002,60.0257316269,
43,1,2.0,191.414856195,Green,1,0.18393611908,1,23,195.914624214,195.91452288,4.49931001663,0.499898666204,0.50004196167,yes,2018_Nov_16_1855,MID1.0,002,60.0257316269,
44,1,2.0,195.915404081,Green,1,0.187418937683,1,24,200.398087025,200.395473349,4.48215985298,0.480320322745,0.482993125916,yes,2018_Nov_16_1855,MID1.0,002,60.0257316269,
